Folder: gaXRD/Data_XRD

Note: README.md
# gaXRD
Copyright (C) 2022 Nguyen Duy Sang <sangduynguyen@gmail.com>, <ndsang@ctu.edu.vn>

## Introduction

Using the genetic algorithm to detect peak parameters of X-ray diffraction

## Installation

You'll need Python 3.8

Using the python package manager pip you can install gaXRD by executing
```
pip install https://github.com/sangduynguyen/gaXRD
```
## Usage
Just run
You can download the zip file from https://github.com/sangduynguyen/gaXRD and run it in cmd:

```
python main.py
```
## Note:
1. Please watch the video to run this software
2. Please see the gaXRD user manual in the "manual" file

File: baseline_LiF-Pure.csv
20.01,0.155548
20.21,0.372237
20.41,0.0478662
20.61,0.343507
20.81,0.198909
21.01,0.130063
21.21,0.15569
21.41,0.295588
21.61,0.182685
21.81,0.102537
22.01,0.146304
22.21,0.195172
22.41,0.179598
22.61,0.225237
22.81,0.336207
23.01,0.0782132
23.21,0.411509
23.41,0.214972
23.61,0.0368831
23.81,0.063298
24.01,0.0592894
24.21,0.164588
24.41,0.0886562
24.61,0.0549385
24.81,0.0197104
25.01,0.158139
25.21,0.123387
25.41,0.153604
25.61,0.101292
25.81,0.239789
26.01,0.127367
26.21,0.193251
26.41,0.266639
26.61,0.127685
26.81,0.305856
27.01,0.150586
27.21,0.0520767
27.41,0.280955
27.61,0.222054
27.81,0.210034
28.01,0.179321
28.21,0.260581
28.41,0.102491
28.61,0.287181
28.81,0.158482
29.01,0.0839054
29.21,0.115541
29.41,0.280285
29.61,0.030662
29.81,0.142715
30.01,0.251879
30.21,0.181311
30.41,0.15703
30.61,0.193979
30.81,0.221681
31.01,0.043692
31.21,0.181108
31.41,0.25455
31.61,0.226792
31.81,0.0787931
32.01,0.258084
32.21,0.0978605
32.41,0.141897
32.61,-0.0080278
32.81,0.0548272
33.01,0.113558
33.21,0.208695
33.41,0.221264
33.61,0.229354
33.81,0.0231409
34.01,0.126922
34.21,0.0389774
34.41,0.0744134
34.61,0.225854
34.81,0.433193
35.01,0.177892
35.21,0.222257
35.41,0.117323
35.61,0.374228
35.81,0.00402925
36.01,0.230697
36.21,0.0701452
36.41,0.0847699
36.61,0.0827448
36.81,0.0900225
37.01,0.0738468
37.21,0.0882216
37.41,0.308874
37.61,0.11332
37.81,0.152913
38.01,0.0152139
38.21,-0.0600785
38.41,4.3667
38.61,59.8392
38.81,30.8729
39.01,0.234869
39.21,-0.0107428
39.41,0.129242
39.61,0.117006
39.81,0.167699
40.01,0.0157068
40.21,0.178954
40.41,0.386936
40.61,0.1212
40.81,0.0967779
41.01,0.140193
41.21,0.107439
41.41,0.106785
41.61,0.117802
41.81,0.00770225
42.01,0.183875
42.21,0.176347
42.41,0.140788
42.61,-0.00548688
42.81,0.158753
43.01,0.00037319
43.21,0.0236798
43.41,0.298213
43.61,0.207557
43.81,0.0684923
44.01,0.090121
44.21,0.000826506
44.41,-0.00807257
44.61,0.991898
44.81,31.8691
45.01,80.0801
45.21,2.4176
45.41,0.12102
45.61,-0.0802423
45.81,0.0882147
46.01,0.0490316
46.21,0.0580886
46.41,-0.00657638
46.61,0.129676
46.81,0.104822
47.01,0.0989637
47.21,0.100025
47.41,0.040873
47.61,0.0656516
47.81,0.0611106
48.01,0.0509596
48.21,0.069606
48.41,0.0955844
48.61,0.187936
48.81,0.155159
49.01,0.076082
49.21,0.222535
49.41,0.0730862
49.61,0.140039
49.81,0.133062
50.01,0.216085
50.21,0.0967959
50.41,0.0904991
50.61,0.0554453
50.81,0.0460484
51.01,0.128338
51.21,0.077293
51.41,0.0459827
51.61,0.115635
51.81,0.177457
52.01,0.0654791
52.21,0.0811659
52.41,0.137183
52.61,0.155859
52.81,0.0983905
53.01,0.0270125
53.21,0.16436
53.41,0.184401
53.61,0.125283
53.81,0.155025
54.01,0.0805967
54.21,0.0757416
54.41,0.0282949
54.61,0.147384
54.81,0.0841468
55.01,0.112104
55.21,0.0824055
55.41,0.12249
55.61,0.0956831
55.81,0.0860749
56.01,0.0641566
56.21,0.137068
56.41,0.0766801
56.61,0.164162
56.81,0.0600836
57.01,0.0545228
57.21,0.0890284
57.41,0.0546922
57.61,0.0993712
57.81,0.168165
58.01,0.1298
58.21,0.0838337
58.41,0.152151
58.61,0.12083
58.81,0.163848
59.01,-0.000527511
59.21,0.0235615
59.41,0.0881795
59.61,0.00961508
59.81,0.0636366
60.01,0.104652
60.21,0.128875
60.41,0.0627187
60.61,0.220242
60.81,0.123023
61.01,0.0589297
61.21,0.0555815
61.41,0.0976468
61.61,0.0556727
61.81,0.155219
62.01,0.193597
62.21,0.116688
62.41,0.122749
62.61,0.129879
62.81,0.10205
63.01,0.026729
63.21,0.104777
63.41,0.103721
63.61,0.146735
63.81,0.158748
64.01,0.146454
64.21,0.0747364
64.41,0.000430056
64.61,-0.00573187
64.81,-0.0982117
65.01,0.0560007
65.21,1.19464
65.41,22.5166
65.61,13.9747
65.81,0.846985
66.01,-0.025609
66.21,0.0269141
66.41,0.0719586
66.61,0.0175831
66.81,0.128379
67.01,0.0647086
67.21,0.0676429
67.41,0.0618065
67.61,-0.0025516
67.81,0.0572898
68.01,0.0323438
68.21,0.0409904
68.41,0.105221
68.61,0.0577473
68.81,0.0012034
69.01,0.138542
69.21,0.0612366
69.41,0.17676
69.61,0.0300077
69.81,0.0952497
70.01,0.0722298
70.21,0.0587682
70.41,0.0576345
70.61,0.0411807
70.81,0.156186
71.01,0.0425572
71.21,0.122264
71.41,0.156736
71.61,0.0922491
71.81,0.0766818
72.01,0.121235
72.21,0.203935
72.41,0.077933
72.61,0.0790815
72.81,0.0962264
73.01,0.137734
73.21,0.0991409
73.41,0.112068
73.61,0.0499085
73.81,0.0254907
74.01,0.0761358
74.21,0.11247
74.41,0.00441651
74.61,0.111376
74.81,0.109216
75.01,0.151044
75.21,0.0626481
75.41,0.1223
75.61,0.0930816
75.81,0.0242833
76.01,0.0852471
76.21,0.159397
76.41,0.0951128
76.61,0.0726584
76.81,0.143659
77.01,0.00181561
77.21,0.104335
77.41,0.052127
77.61,0.0488107
77.81,0.0110881
78.01,0.0446621
78.21,0.0715607
78.41,0.180592
78.61,3.84536
78.81,3.27239
79.01,2.50711
79.21,0.0951758
79.41,0.0747076
79.61,0.0481301
79.81,0.124932
80.0,0.0123077

File: baseline_LiF.csv
5.03,13.8867
5.32,0.147142
5.61,10.0235
5.9,0.826914
6.19,5.03594
6.48,11.6497
6.77,30.0968
7.06,6.69506
7.35,36.1509
7.64,29.0898
7.93,55.0621
8.22,31.101
8.51,33.9733
8.8,22.3724
9.09,13.5063
9.38,5.72435
9.67,14.9984
9.96,24.2058
10.25,18.3131
10.54,13.5538
10.83,19.887
11.12,21.6474
11.41,27.9563
11.7,7.79862
11.99,18.3288
12.28,7.61778
12.57,9.0872
12.86,-0.222527
13.15,18.6629
13.44,19.6483
13.73,13.067
14.02,43.9628
14.31,20.9378
14.6,7.57658
14.89,3.93701
15.18,18.7015
15.47,4.23784
15.76,5.28906
16.05,19.8065
16.34,19.4426
16.63,16.7447
16.92,20.8917
17.21,9.77614
17.5,9.26063
17.79,23.5945
18.08,28.3312
18.37,20.3271
18.66,27.515
18.95,22.182
19.24,27.0458
19.53,-0.0514549
19.82,31.4776
20.11,29.7399
20.4,11.9689
20.69,25.4339
20.98,7.99329
21.27,30.7018
21.56,20.9771
21.85,23.0304
22.14,13.9454
22.43,18.1936
22.72,12.2827
23.01,6.99105
23.3,19.3414
23.59,14.6936
23.88,7.84744
24.17,17.1933
24.46,9.69647
24.75,10.9095
25.04,20.4962
25.33,13.865
25.62,14.1005
25.91,16.4026
26.2,22.641
26.49,0.90563
26.78,29.9838
27.07,20.1473
27.36,16.2775
27.65,28.4297
27.94,5.45906
28.23,8.08322
28.52,18.0034
28.81,14.1469
29.1,12.9122
29.39,12.0988
29.68,5.99297
29.97,7.17726
30.26,11.2436
30.55,9.99331
30.84,12.5329
31.13,2.61893
31.42,14.7459
31.71,16.0395
32.0,15.4724
32.29,11.835
32.58,5.88161
32.87,11.614
33.16,0.0532258
33.45,24.2033
33.74,13.7301
34.03,9.58292
34.32,-0.335604
34.61,20.1619
34.9,22.4516
35.19,8.34413
35.48,9.66531
35.77,8.54854
36.06,13.0019
36.35,5.25847
36.64,-1.12508
36.93,7.73263
37.22,10.8863
37.51,17.3835
37.8,7.28249
38.09,-2.79667
38.38,217.099
38.67,7568.13
38.96,56.6619
39.25,1.3734
39.54,-7.80487
39.83,-0.703052
40.12,3.68805
40.41,34.5395
40.7,6.50195
40.99,12.0627
41.28,1.9671
41.57,14.2698
41.86,20.768
42.15,11.8696
42.44,6.96866
42.73,9.48589
43.02,3.27159
43.31,15.2312
43.6,19.8068
43.89,8.59094
44.18,-0.4177
44.47,6.83964
44.76,1487.87
45.05,4199.34
45.34,11.9466
45.63,-1.20416
45.92,3.41973
46.21,5.18457
46.5,6.79207
46.79,11.8532
47.08,6.67895
47.37,3.85143
47.66,8.61723
47.95,13.3274
48.24,12.0695
48.53,17.1341
48.82,12.1976
49.11,11.361
49.4,0.0247878
49.69,2.39188
49.98,14.3257
50.27,10.8138
50.56,21.6067
50.85,7.45184
51.14,17.5134
51.43,4.46635
51.72,6.6798
52.01,5.84565
52.3,12.2279
52.59,13.1769
52.88,9.58959
53.17,12.8747
53.46,5.83342
53.75,21.3255
54.04,8.15095
54.33,0.285822
54.62,14.6454
54.91,17.4359
55.2,7.74757
55.49,0.855958
55.78,14.4128
56.07,11.1029
56.36,4.55971
56.65,7.34985
56.94,9.22203
57.23,11.0706
57.52,5.77346
57.81,15.0119
58.1,7.88369
58.39,17.0615
58.68,11.2622
58.97,11.2742
59.26,13.8077
59.55,4.56242
59.84,-0.00481671
60.13,11.1328
60.42,6.1371
60.71,8.84489
61.0,0.471841
61.29,11.6691
61.58,5.65989
61.87,-0.425203
62.16,7.69947
62.45,11.5076
62.74,9.16777
63.03,0.347658
63.32,6.47263
63.61,13.0976
63.9,12.6341
64.19,13.7236
64.48,1.30136
64.77,2.50604
65.06,15.0472
65.35,1277.45
65.64,1337.21
65.93,11.3633
66.22,4.82456
66.51,7.02539
66.8,11.1368
67.09,-2.30173
67.38,17.5872
67.67,8.82141
67.96,13.369
68.25,5.81294
68.54,14.0818
68.83,1.47116
69.12,8.35031
69.41,15.7791
69.7,3.17285
69.99,4.46183
70.28,5.05724
70.57,8.07003
70.86,5.5403
71.15,8.34478
71.44,5.02618
71.73,8.67424
72.02,7.92231
72.31,7.79733
72.6,6.35948
72.89,2.72164
73.18,13.4352
73.47,18.8341
73.76,5.05395
74.05,11.86
74.34,2.95767
74.63,15.2166
74.92,17.778
75.21,5.59213
75.5,11.8054
75.79,3.68537
76.08,7.77912
76.37,5.7252
76.66,3.17597
76.95,5.82726
77.24,4.3513
77.53,2.21819
77.82,3.21791
78.11,-3.10084
78.4,18.1464
78.69,574.199
78.98,307.684
79.27,3.04575
79.56,2.81844
79.85,3.5564
80.14,2.90975
80.43,10.7272
80.72,2.90583
81.01,3.15568
81.3,5.67696
81.59,12.3206
81.88,3.09639
82.17,-5.64839
82.46,5.83664
82.75,46.5691
83.04,354.434
83.33,59.4324
83.62,-3.24009
83.91,8.40859
84.2,11.263
84.49,3.86852
84.78,8.65153
85.07,11.711
85.36,7.84901
85.65,11.0018
85.94,6.56587
86.23,5.5164
86.52,9.97235
86.81,9.21005
87.1,6.08588
87.39,12.7323
87.68,12.2616
87.97,13.5914
88.26,3.60107
88.55,8.07342
88.84,6.89807
89.13,6.98941
89.42,7.52755
89.71,4.66352
89.99,5.22958

File: baseline_ZnO.csv
20.0192,37.9188
20.242,15.0488
20.4647,10.9973
20.6874,32.2312
20.9102,14.4651
21.1329,-6.29625
21.3556,27.127
21.5784,43.4945
21.8011,33.862
22.0238,27.2295
22.2466,47.0927
22.4693,8.66774
22.692,28.2427
22.9148,68.9715
23.1375,47.8102
23.3602,64.6078
23.583,14.4055
23.8057,11.2109
24.0284,12.0371
24.2512,26.8632
24.4739,23.6893
24.6966,18.5155
24.9194,26.3416
25.1421,0.120178
25.3648,8.31344
25.5876,60.7883
25.8103,41.1913
26.033,6.59436
26.2558,30.2725
26.4785,25.3742
26.7012,9.2208
26.924,40.6657
27.1467,36.0385
27.3694,43.7308
27.5922,105.45
27.8149,88.0815
28.0376,329.713
28.2604,1120.34
28.4831,3455.98
28.7058,1648.61
28.9286,369.238
29.1513,145.869
29.374,57.5005
29.5968,49.776
29.8195,40.9933
30.0422,-2.63693
30.265,16.1524
30.4877,37.6386
30.7104,35.0365
30.9332,28.9165
31.1559,17.2148
31.3786,4.37829
31.6014,37.956
31.8241,26.1885
32.0468,17.6571
32.2696,83.0425
32.4923,77.4278
32.715,190.813
32.9378,753.199
33.1605,711.584
33.3832,218.969
33.606,96.3546
33.8287,30.7399
34.0514,29.8362
34.2742,41.2998
34.4969,22.0368
34.7196,41.6235
34.9424,19.2103
35.1651,26.797
35.3878,30.3541
35.6106,15.8864
35.8333,31.2797
36.056,6.66841
36.2788,12.9966
36.5015,28.1538
36.7242,18.1101
36.947,22.8955
37.1697,15.6809
37.3924,37.4663
37.6152,42.1184
37.8379,26.6594
38.0606,34.2003
38.2834,33.7413
38.5061,45.2823
38.7288,34.6752
38.9516,12.0353
39.1743,35.3954
39.397,-5.24453
39.6198,19.5167
39.8425,31.1248
40.0652,19.7177
40.288,20.3106
40.5107,24.9034
40.7334,20.4963
40.9562,13.0892
41.1789,-0.31796
41.4016,16.2394
41.6244,47.7967
41.8471,21.3541
42.0698,43.9114
42.2926,45.4688
42.5153,45.0261
42.738,47.5835
42.9608,18.1408
43.1835,32.6982
43.4062,34.0724
43.629,30.227
43.8517,27.3815
44.0744,49.5361
44.2972,10.7953
44.5199,19.0937
44.7426,25.2542
44.9654,-1.71094
45.1881,15.1255
45.4108,7.28985
45.6336,14.2341
45.8563,10.3662
46.079,38.2179
46.3018,44.0451
46.5245,49.1518
46.7472,113.461
46.97,252.769
47.1927,735.078
47.4154,1426.39
47.6382,740.696
47.8609,217.005
48.0836,92.3134
48.3064,50.6222
48.5291,36.3885
48.7518,24.6845
48.9746,25.4438
49.1973,26.8463
49.42,29.5856
49.6428,39.5351
49.8655,22.5255
50.0882,23.7536
50.311,42.0477
50.5337,20.1641
50.7564,37.2831
50.9792,56.4292
51.2019,36.5754
51.4246,24.3358
51.6474,8.04755
51.8701,11.7593
52.0928,24.4711
52.3156,16.1829
52.5383,48.8947
52.761,3.60643
52.9838,17.3182
53.2065,0.639641
53.4292,34.5983
53.652,40.9453
53.8747,4.00851
54.0974,13.1525
54.3202,4.14447
54.5429,17.8356
54.7656,31.6237
54.9884,32.1028
55.2111,7.73003
55.4338,45.93
55.6566,87.6473
55.8793,322.365
56.102,753.082
56.3248,917.799
56.5475,456.517
56.7702,92.2338
56.993,55.9511
57.2157,51.6685
57.4384,13.1156
57.6612,1.46392
57.8839,29.252
58.1066,16.2846
58.3294,2.93595
58.5521,31.0599
58.7748,97.1839
58.9976,219.308
59.2203,116.432
59.443,57.5558
59.6658,28.6797
59.8885,17.8037
60.1112,36.9277
60.334,20.0516
60.5567,38.1756
60.7794,26.2605
61.0022,32.1267
61.2249,25.8266
61.4476,10.5243
61.6704,47.264
61.8931,43.0036
62.1158,24.7433
62.3386,17.483
62.5613,35.2227
62.784,47.9624
63.0068,35.6934
63.2295,10.3852
63.4522,17.07
63.675,40.7426
63.8977,38.4151
64.1204,54.0877
64.3432,21.7602
64.5659,39.4327
64.7886,29.1053
65.0114,20.7778
65.2341,61.258
65.4568,39.0685
65.6796,26.6739
65.9023,39.2246
66.125,20.7752
66.3478,8.32588
66.5705,47.8765
66.7932,31.4272
67.016,21.0832
67.2387,33.8652
67.4614,53.8193
67.6842,32.7034
67.9069,27.5876
68.1296,20.4717
68.3524,37.3559
68.5751,29.24
68.7978,48.1242
69.0206,128.008
69.2433,175.892
69.466,151.777
69.6888,64.6607
69.9115,38.5449
70.1342,38.429
70.357,35.3132
70.5797,50.2652
70.8024,36.3982
71.0252,35.4847
71.2479,66.4475
71.4706,28.3755
71.6934,-0.725491
71.9161,56.0924
72.1388,21.9104
72.3616,9.72833
72.5843,37.5463
72.807,40.3642
73.0298,25.9362
73.2525,26.2607
73.4752,12.4871
73.698,29.6093
73.9207,15.7316
74.1434,9.73622
74.3662,15.5351
74.5889,15.3341
74.8116,20.133
75.0344,23.2397
75.2571,39.3772
75.4798,12.7581
75.7026,48.3958
75.9253,86.0537
76.148,102.712
76.3708,232.369
76.5935,286.027
76.8162,207.685
77.039,98.343
77.2617,88.0008
77.4844,49.6587
77.7072,21.3166
77.9299,28.0744
78.1526,31.0987
78.3754,87.123
78.5981,113.147
78.8208,198.172
79.0436,211.196
79.2663,151.22
79.489,61.2447
79.7118,74.269
79.9345,39.2934
80.1572,5.3177
80.38,0.371698
80.6027,4.50313
80.8254,31.8274
81.0482,29.2973
81.2709,28.6842
81.4936,50.5501
81.7164,0.0824824
81.7366,9.98269

File: LiF-Pure.csv
20,2.15976
20.21,2.36177
20.42,1.92526
20.63,2.26991
20.84,2.20382
21.05,2.19299
21.26,2.18701
21.47,2.0145
21.68,1.9443
21.89,2.15714
22.1,1.96932
22.31,1.95849
22.52,2.03541
22.73,1.88269
22.94,1.98911
23.15,1.98575
23.36,1.90696
23.57,1.86962
23.78,1.93945
23.99,1.77739
24.2,1.86141
24.41,1.7296
24.62,1.724
24.83,1.65044
25.04,1.79196
25.25,1.88493
25.46,1.70085
25.67,1.60563
25.88,1.63849
26.09,1.75872
26.3,1.65828
26.51,1.54215
26.72,1.5119
26.93,1.56119
27.14,1.44357
27.35,1.50369
27.56,1.39988
27.77,1.33865
27.98,1.39988
28.19,1.52647
28.4,1.34126
28.61,1.52161
28.82,1.42303
29.03,1.29309
29.24,1.25724
29.45,1.43536
29.66,1.2509
29.87,1.28077
30.08,1.32595
30.29,1.28376
30.5,1.23559
30.71,1.20086
30.92,1.26583
31.13,1.16016
31.34,1.2158
31.55,1.30205
31.76,1.25127
31.97,1.22887
32.18,1.24604
32.39,1.2102
32.6,1.11087
32.81,1.13514
33.02,1.17659
33.23,1.36665
33.44,1.3028
33.65,1.09929
33.86,1.27106
34.07,1.11087
34.28,1.1736
34.49,1.13029
34.7,1.30915
34.91,1.28413
35.12,1.19339
35.33,1.18854
35.54,1.19713
35.75,1.14224
35.96,1.06532
36.17,1.07092
36.38,1.20982
36.59,1.1146
36.8,1.08921
37.01,1.09407
37.22,1.20161
37.43,1.50892
37.64,1.41706
37.85,1.32968
38.06,1.54588
38.27,2.03765
38.48,18.86053
38.69,88.11798
38.9,3.69817
39.11,1.65641
39.32,1.28936
39.53,1.1624
39.74,1.22326
39.95,1.24231
40.16,1.15082
40.37,1.4081
40.58,1.17808
40.79,1.01864
41,1.09967
41.21,1.04777
41.42,1.03843
41.63,0.94919
41.84,1.09369
42.05,1.00072
42.26,0.97122
42.47,1.03768
42.68,0.98093
42.89,1.10938
43.1,0.98951
43.31,1.13066
43.52,1.25724
43.73,1.28264
43.94,1.13551
44.15,1.20049
44.36,1.41706
44.57,2.27327
44.78,24.33684
44.99,95.11964
45.2,4.53347
45.41,1.69711
45.62,1.21841
45.83,1.18331
46.04,1.10452
46.25,1.00744
46.46,0.94919
46.67,0.90363
46.88,0.84874
47.09,0.82148
47.3,0.88048
47.51,0.88608
47.72,0.88758
47.93,0.85546
48.14,0.73822
48.35,0.74979
48.56,0.7524
48.77,0.79983
48.98,0.65495
49.19,0.7707
49.4,0.58176
49.61,0.71394
49.82,0.69975
50.03,0.7132
50.24,0.72365
50.45,0.6949
50.66,0.58624
50.87,0.59819
51.08,0.671
51.29,0.70834
51.5,0.65084
51.71,0.53359
51.92,0.57989
52.13,0.58213
52.34,0.58475
52.55,0.6023
52.76,0.60304
52.97,0.52575
53.18,0.57355
53.39,0.61761
53.6,0.5026
53.81,0.57317
54.02,0.49886
54.23,0.62433
54.44,0.51791
54.65,0.53882
54.86,0.49849
55.07,0.50111
55.28,0.50372
55.49,0.4253
55.7,0.4914
55.91,0.53172
56.12,0.54927
56.33,0.46489
56.54,0.49065
56.75,0.47198
56.96,0.40663
57.17,0.48131
57.38,0.47683
57.59,0.47646
57.8,0.52836
58.01,0.49252
58.22,0.49102
58.43,0.48729
58.64,0.33793
58.85,0.54629
59.06,0.39618
59.27,0.55712
59.48,0.35473
59.69,0.41074
59.9,0.48281
60.11,0.44509
60.32,0.4619
60.53,0.43016
60.74,0.45966
60.95,0.45182
61.16,0.41634
61.37,0.36556
61.58,0.39991
61.79,0.48244
62,0.51679
62.21,0.44472
62.42,0.52874
62.63,0.31328
62.84,0.54479
63.05,0.40663
63.26,0.4268
63.47,0.44248
63.68,0.56272
63.89,0.52463
64.1,0.58363
64.31,0.63404
64.52,0.50409
64.73,0.68258
64.94,0.72813
65.15,1.35321
65.36,16.54282
65.57,15.86211
65.78,2.3879
65.99,0.7371
66.2,0.55973
66.41,0.55562
66.62,0.46302
66.83,0.50857
67.04,0.42306
67.25,0.37639
67.46,0.40962
67.67,0.41485
67.88,0.43053
68.09,0.46787
68.3,0.34764
68.51,0.38124
68.72,0.47683
68.93,0.40141
69.14,0.28939
69.35,0.38684
69.56,0.46302
69.77,0.39655
69.98,0.30246
70.19,0.29984
70.4,0.29499
70.61,0.29237
70.82,0.40402
71.03,0.25765
71.24,0.39133
71.45,0.31216
71.66,0.31739
71.87,0.25653
72.08,0.25653
72.29,0.29984
72.5,0.35884
72.71,0.35735
72.92,0.24831
73.13,0.26586
73.34,0.26138
73.55,0.20761
73.76,0.25354
73.97,0.24719
74.18,0.28416
74.39,0.2289
74.6,0.28341
74.81,0.29275
75.02,0.35697
75.23,0.24645
75.44,0.23375
75.65,0.28976
75.86,0.23972
76.07,0.27482
76.28,0.2752
76.49,0.23487
76.7,0.32747
76.91,0.28901
77.12,0.25018
77.33,0.26287
77.54,0.24234
77.75,0.26586
77.96,0.3327
78.17,0.2681
78.38,0.525
78.59,3.46405
78.8,4.06448
79.01,2.80462
79.22,0.3902
79.43,0.23786
79.64,0.19902
79.85,0.23375
80,0.21097

File: LiF.csv
5.02,394.667
5.31,372.333
5.6,383.3
5.89,376.433
6.18,358.067
6.47,374.367
6.76,390.067
7.05,369.267
7.34,390.633
7.63,382.2
7.92,392.567
8.21,371.667
8.5,364.533
8.79,349.533
9.08,337.4
9.37,318.867
9.66,332.3
9.95,342.367
10.24,328.933
10.53,319.567
10.82,323.8
11.11,322.8
11.4,328.767
11.69,297.467
11.98,301.1
12.27,283.3
12.56,285.433
12.85,276
13.14,290.467
13.43,282.233
13.72,279.833
14.01,284.333
14.3,272.233
14.59,266.967
14.88,255.433
15.17,264.2
15.46,245.433
15.75,248.033
16.04,260.033
16.33,255.967
16.62,243.367
16.91,260.233
17.2,247.367
17.49,237.7
17.78,261.933
18.07,249.9
18.36,235.267
18.65,252.4
18.94,252.767
19.23,251.967
19.52,225.8
19.81,247.633
20.1,237.967
20.39,227.6
20.68,237.8
20.97,219.5
21.26,234.2
21.55,225.2
21.84,223.3
22.13,218.1
22.42,220.3
22.71,216.133
23,204.333
23.29,215.2
23.58,214.567
23.87,204.6
24.16,201.4
24.45,198.467
24.74,191.867
25.03,201.233
25.32,184.833
25.61,180.267
25.9,182.567
26.19,195.2
26.48,176.7
26.77,192.667
27.06,181.567
27.35,173.2
27.64,179.767
27.93,158.367
28.22,165.5
28.51,168.567
28.8,160.867
29.09,159.9
29.38,155.567
29.67,150.367
29.96,142.767
30.25,158.433
30.54,155.667
30.83,149.1
31.12,139.967
31.41,162
31.7,155.9
31.99,144.3
32.28,144.4
32.57,141.8
32.86,143.067
33.15,142.567
33.44,155.267
33.73,148.4
34.02,143.967
34.31,136.267
34.6,154.567
34.89,155.1
35.18,138.833
35.47,137.533
35.76,140.033
36.05,139.1
36.34,126.667
36.63,122.5
36.92,142.2
37.21,142.833
37.5,162.4
37.79,158.133
38.08,178.8
38.37,377.867
38.66,7483.4
38.95,259.333
39.24,177.767
39.53,142.733
39.82,145.367
40.11,140.433
40.4,162.667
40.69,143.133
40.98,135.467
41.27,127.2
41.56,132.7
41.85,138.633
42.14,131.267
42.43,123.533
42.72,128.7
43.01,119.933
43.3,147.867
43.59,153.667
43.88,150.267
44.17,145.467
44.46,186.3
44.75,1416.43
45.04,4699.4
45.33,205.967
45.62,147.733
45.91,132.6
46.2,133.467
46.49,122.5
46.78,119.667
47.07,118.533
47.36,111.567
47.65,115.6
47.94,115.333
48.23,110.867
48.52,112.333
48.81,109.133
49.1,100.5
49.39,88.03333
49.68,92.9
49.97,98.66667
50.26,95.7
50.55,106.267
50.84,92.5
51.13,107.967
51.42,88.06667
51.71,86.6
52,80.66667
52.29,90.1
52.58,92.96667
52.87,86.3
53.16,89.66667
53.45,80.9
53.74,97.66667
54.03,83.9
54.32,79.26667
54.61,89.66667
54.9,88.96667
55.19,85.93333
55.48,78.7
55.77,90.66667
56.06,86.2
56.35,77.7
56.64,80.43333
56.93,86.63333
57.22,80.56667
57.51,71.23333
57.8,86.13333
58.09,80.66667
58.38,90.16667
58.67,81.56667
58.96,80
59.25,78.36667
59.54,75.16667
59.83,72.9
60.12,80.33333
60.41,76.33333
60.7,76.1
60.99,73.7
61.28,77.23333
61.57,75.83333
61.86,71.73333
62.15,75.66667
62.44,83.63333
62.73,78.63333
63.02,70.7
63.31,75.83333
63.6,87.7
63.89,85.8
64.18,92.93333
64.47,81.13333
64.76,93.26667
65.05,119.433
65.34,1258.93
65.63,1416.8
65.92,120.833
66.21,90.96667
66.5,83.96667
66.79,84.16667
67.08,73.83333
67.37,81.86667
67.66,76
67.95,77.06667
68.24,70.03333
68.53,78.26667
68.82,64.6
69.11,71.93333
69.4,78.06667
69.69,62.7
69.98,65.96667
70.27,64.16667
70.56,69.33333
70.85,65.8
71.14,67.93333
71.43,62.5
71.72,66.43333
72.01,68.53333
72.3,65.03333
72.59,63.06667
72.88,62.2
73.17,69.9
73.46,72.16667
73.75,63.36667
74.04,66.3
74.33,59.73333
74.62,68.03333
74.91,71.9
75.2,58.33333
75.49,65.76667
75.78,61.3
76.07,63.5
76.36,61.8
76.65,62.26667
76.94,64.66667
77.23,62.33333
77.52,63.13333
77.81,61.93333
78.1,57.8
78.39,86.33333
78.68,614.167
78.97,373.5
79.26,74.26667
79.55,62.1
79.84,56.66667
80.13,62.4
80.42,64.3
80.71,56.86667
81,57.56667
81.29,57.93333
81.58,65.9
81.87,58.06667
82.16,52.2
82.45,68.33333
82.74,104.8
83.03,478.2
83.32,141.767
83.61,55.7
83.9,63.66667
84.19,65.63333
84.48,56.6
84.77,58.16667
85.06,61.33333
85.35,53.16667
85.64,55.76667
85.93,57
86.22,60
86.51,55.56667
86.8,52.56667
87.09,51.43333
87.38,57.9
87.67,60.26667
87.96,58.53333
88.25,51.36667
88.54,50.4
88.83,51.43333
89.12,51.56667
89.41,53.2
89.7,48.86667
89.99,49.66667

File: TiO2.csv
10.34,180.6
10.59,197.4
10.84,207.2
11.09,270.2
11.34,196
11.59,208.6
11.84,292.6
12.09,298.2
12.34,236.6
12.59,180.6
12.84,212.8
13.09,179.2
13.34,154
13.59,180.6
13.84,193.2
14.09,198.8
14.34,211.4
14.59,184.8
14.84,182
15.09,142.8
15.34,137.2
15.59,155.4
15.84,130.2
16.09,130.2
16.34,127.4
16.59,138.6
16.84,140
17.09,166.6
17.34,114.8
17.59,113.4
17.84,98
18.09,156.8
18.34,124.6
18.59,110.6
18.84,124.6
19.09,141.4
19.34,137.2
19.59,110.6
19.84,138.6
20.09,140
20.34,124.6
20.59,116.2
20.84,100.8
21.09,96.6
21.34,116.2
21.59,114.8
21.84,95.2
22.09,127.4
22.34,144.2
22.59,98
22.84,114.8
23.09,144.2
23.34,151.2
23.59,169.4
23.84,151.2
24.09,256.2
24.34,338.8
24.59,449.4
24.84,840
25.09,2378.6
25.34,3302.6
25.59,1342.6
25.84,634.2
26.09,348.6
26.34,256.2
26.59,197.4
26.84,183.4
27.09,280
27.34,520.8
27.59,407.4
27.84,197.4
28.09,85.4
28.34,100.8
28.59,112
28.84,112
29.09,84
29.34,112
29.59,100.8
29.84,98
30.09,71.4
30.34,86.8
30.59,116.2
30.84,88.2
31.09,56
31.34,82.6
31.59,68.6
31.84,72.8
32.09,68.6
32.34,70
32.59,98
32.84,82.6
33.09,74.2
33.34,84
33.59,72.8
33.84,96.6
34.09,86.8
34.34,68.6
34.59,84
34.84,70
35.09,95.2
35.34,114.8
35.59,138.6
35.84,242.2
36.09,396.2
36.34,208.6
36.59,242.2
36.84,352.8
37.09,393.4
37.34,492.8
37.59,641.2
37.84,912.8
38.09,604.8
38.34,448
38.59,390.6
38.84,239.4
39.09,170.8
39.34,144.2
39.59,127.4
39.84,84
40.09,99.4
40.34,84
40.59,84
40.84,110.6
41.09,212.8
41.34,182
41.59,85.4
41.84,72.8
42.09,82.6
42.34,57.4
42.59,56
42.84,99.4
43.09,57.4
43.34,56
43.59,86.8
43.84,85.4
44.09,100.8
44.34,70
44.59,72.8
44.84,85.4
45.09,58.8
45.34,68.6
45.59,100.8
45.84,112
46.09,99.4
46.34,86.8
46.59,88.2
46.84,126
47.09,138.6
47.34,320.6
47.59,520.8
47.84,1094.8
48.09,1260
48.34,744.8
48.59,252
48.84,168
49.09,127.4
49.34,128.8
49.59,102.2
49.84,88.2
50.09,100.8
50.34,56
50.59,84
50.84,68.6
51.09,67.2
51.34,95.2
51.59,110.6
51.84,81.2
52.09,84
52.34,116.2
52.59,110.6
52.84,165.2
53.09,180.6
53.34,291.2
53.59,418.6
53.84,837.2
54.09,994
54.34,826
54.59,575.4
54.84,795.2
55.09,841.4
55.34,548.8
55.59,294
55.84,239.4
56.09,142.8
56.34,166.6
56.59,166.6
56.84,113.4
57.09,123.2
57.34,53.2
57.59,96.6
57.84,56
58.09,57.4
58.34,57.4
58.59,54.6
58.84,54.6
59.09,72.8
59.34,56
59.59,58.8
59.84,58.8
60.09,57.4
60.34,68.6
60.59,54.6
60.84,86.8
61.09,130.2
61.34,99.4
61.59,130.2
61.84,196
62.09,306.6
62.34,492.8
62.59,656.6
62.84,532
63.09,376.6
63.34,211.4
63.59,144.2
63.84,123.2
64.09,110.6
64.34,96.6
64.59,96.6
64.84,86.8
65.09,70
65.34,54.6
65.59,60.2
65.84,71.4
66.09,56
66.34,68.6
66.59,71.4
66.84,40.6
67.09,60.2
67.34,85.4
67.59,58.8
67.84,85.4
68.09,110.6
68.34,127.4
68.59,235.2
68.84,368.2
69.09,322
69.34,197.4
69.59,200.2
69.84,282.8
70.09,252
70.34,298.2
70.59,196
70.84,141.4
71.09,140
71.34,85.4
71.59,42
71.84,54.6
72.09,74.2
72.34,86.8
72.59,56
72.84,53.2
73.09,67.2
73.34,68.6
73.59,70
73.84,74.2
74.09,124.6
74.34,151.2
74.59,197.4
74.84,410.2
75.09,365.4
75.34,354.2
75.59,238
75.84,210
76.09,197.4
76.34,172.2
76.59,128.8
76.84,70
77.09,72.8
77.34,57.4
77.59,42
77.84,42
78.09,44.8
78.34,56
78.59,54.6
78.84,56
79.09,57.4
79.34,54.6
79.59,56
79.84,58.8
79.99,68.6