Folder: gaXRD/Data_XRD (part 2)

File: XRD4.csv
6.00925,51317.7
6.25903,36068.5
6.50881,50843.2
6.75859,21932
7.00838,60160.3
7.25816,36579.8
7.50794,71489.8
7.75772,18897
8.0075,51778.6
8.25728,32878
8.50706,39269.8
8.75684,79531.1
9.00663,38333.4
9.25641,38821
9.50619,66502.1
9.75597,54418.2
10.0058,123269
10.2555,193725
10.5053,234831
10.7551,267766
11.0049,214586
11.2547,154593
11.5044,100195
11.7542,52399.7
12.004,40111.7
12.2538,54130.4
12.5036,41244.3
12.7533,74355.8
13.0031,42216.9
13.2529,84385.1
13.5027,44979.1
13.7525,43901.2
14.0023,54967
14.252,24236.1
14.5018,45892.1
14.7516,45239.1
15.0014,62341.9
15.2512,81508.6
15.5009,-4292.6
15.7507,48454.2
16.0005,12767.4
16.2503,61651.6
16.5001,66467.7
16.7498,50539.8
16.9996,46719.6
17.2494,36122.1
17.4992,37377.7
17.749,21281.4
17.9987,30422.3
18.2485,38004.7
18.4983,116789
18.7481,133231
18.9979,200838
19.2477,281885
19.4974,350585
19.7472,434608
19.997,380678
20.2468,345611
20.4966,285690
20.7463,193327
20.9961,106953
21.2459,37147.9
21.4957,51307.7
21.7455,-3290.52
21.9952,65652.3
22.245,59437.7
22.4948,44109.9
22.7446,87003.5
22.9944,66937.5
23.2442,44184.4
23.4939,15808.3
23.7437,29038.4
23.9935,71577.3
24.2433,23375.1
24.4931,12474.2
24.7428,37338
24.9926,19117.3
25.2424,16794.1
25.4922,13379.2
25.742,56040.6
25.9917,16185.5
26.2415,52848
26.4913,43522.5
26.7411,20107
26.9909,35927.9
27.2407,17760.1
27.4904,5863.38
27.7402,66174.2
27.99,59968
28.2398,9249.71
28.4896,106833
28.7393,324122
28.9891,631056
29.2389,595701
29.4887,335598
29.7385,120594
29.9882,34468.3
30.238,34978.1
30.4878,6097.86
30.7376,49774.1
30.9874,69705.6
31.2372,18911.1
31.4869,63742.7
31.7367,16835.9
31.9865,72832.3
32.2363,50190.7
32.4861,29609.5
32.7358,75129.2
32.9856,62627
33.2354,43056.9
33.4852,59966.9
33.735,39197.5
33.9847,86080.9
34.2345,58273.8
34.4843,46034.3
34.7341,33681.6
34.9839,54251.1
35.2337,38341.3
35.4834,48665.7
35.7332,56155.1
35.983,49940.3
36.2328,82816.4
36.4826,15775.1
36.7323,57108.9
36.9821,21229.2
37.2319,36458
37.4817,35158.5
37.7315,38431.2
37.9812,30943.9
38.231,341892
38.4808,540698
38.7306,12669.8
38.9804,27454.9
39.2302,44914
39.4799,31121.4
39.7297,26364.7
39.9795,56853.7
40.2293,65341.5
40.4791,16356.5
40.7288,71528.9
40.9786,77653.9
41.2284,41869.5
41.4782,35951
41.728,58819.7
41.9777,60819.4
42.2275,96570
42.4773,38628.9
42.7271,73716.7
42.9769,25915.8
43.2267,92374.1
43.4764,79569.6
43.7262,83119.2
43.976,48127.4
44.2258,59283.5
44.4756,55361.1
44.7253,60325.1
44.9751,96895.5
45.2249,45830.5
45.4747,51789.7
45.7245,68642.8
45.9742,43991.7
46.224,69071.9
46.4738,33535.8
46.7236,47247.2
46.9734,85158.9
47.2232,392220
47.4729,804596
47.7227,840904
47.9725,495176
48.2223,136930
48.4721,57618.1
48.7218,24390.9
48.9716,19212.2
49.2214,54959.1
49.4712,22859
49.721,36226.4
49.9707,50558.9
50.2205,32537.6
50.4703,42943.7
50.7201,69450.7
50.9699,24209.3
51.2197,34234.6
51.4694,88321.8
51.7192,54509.1
51.969,13748.5
52.2188,37743.2
52.4686,70672
52.7183,40261.5
52.9681,54788.7
53.2179,35049
53.4677,16640.5
53.7175,42717.4
53.9672,3261.13
54.217,54773.9
54.4668,60520.8
54.7166,8993.7
54.9664,20613.3
55.2162,32731
55.4659,59868.8
55.7157,22946.8
55.9655,64239.3
56.2153,69034.5
56.4651,49093.5
56.7148,318922
56.9646,891803
57.2144,36227.6
57.4642,3792.1
57.714,15836.5
57.9637,37487.4
58.2135,49011.6
58.4633,47302.6
58.7131,44233.5
58.9629,14590.8
59.2127,39801.8
59.4624,38705.7
59.7122,33839.5
59.962,33941
60.2118,21364.4
60.4616,85051.8
60.7113,42046.4
60.9611,71432.7
61.2109,63479.3
61.4607,41442.8
61.7105,97494.7
61.9602,69009.4
62.21,49597.7
62.4598,61180.3
62.7096,62043.7
62.9594,70943.5
63.2092,11133.5
63.4589,37260.6
63.7087,48429.2
63.9585,61387.8
64.2083,49238.7
64.4581,56832.1
64.7078,51487.5
64.9576,51420.3
65.2074,89127.3
65.4572,169756
65.707,245318
65.9567,277304
66.2065,271199
66.4563,259767
66.7061,181167
66.9559,118058
67.2057,63056.2
67.4554,19176.4
67.7052,46339.5
67.955,25453.1
68.2048,36997.6
68.4546,35169.3
68.7043,32731.2
68.9541,59966
69.2039,59234.2
69.4537,65535.1
69.7035,61691.9
69.9532,62072.8
70.203,28123.1
70.4528,52184.1
70.7026,44553.8
70.9524,41866.3
71.2022,44688.5
71.4519,31725.2
71.7017,48669.9
71.9515,61310.4
72.2013,35005.3
72.4511,52648.7
72.7008,60458.2
72.9506,28117.1
73.2004,11661.3
73.4502,6326.52
73.7,-4007.26
73.9497,19836.1
74.1995,68573.9
74.4493,72429.4
74.6991,-22708.7
74.9489,71940.8
75.1986,528914
75.4484,927339
75.6982,140700
75.948,51665.5
76.1978,36263.6
76.4476,22179
76.6973,54822.5
76.9471,31831.3
77.1969,35121.7
77.4467,57542.7
77.6965,30864.9
77.9462,35942.9
78.196,70317.3
78.4458,35636.8
78.6956,22214.8
78.9454,24735.8
79.1951,73922.8
79.4449,46108.3
79.6947,55761.8
79.9445,52767.8
80.0,11952.7

File: XRD_LiF-Pure.csv
20.02,0.0
20.22,0.0
20.42,0.0
20.62,0.0
20.82,0.0
21.02,0.0
21.22,0.0
21.42,0.0
21.62,0.0
21.82,0.0
22.02,0.0
22.22,0.0
22.42,0.0
22.62,0.0
22.82,0.0
23.02,0.0
23.22,0.0
23.42,0.0
23.62,0.0
23.82,0.0
24.02,0.0
24.22,0.0
24.42,0.0
24.62,0.0
24.82,0.0
25.02,0.0
25.22,0.0
25.42,0.0
25.62,0.0
25.82,0.0
26.02,0.0
26.22,0.0
26.42,0.0
26.62,0.0
26.82,0.0
27.02,0.0
27.22,0.0
27.42,0.0
27.62,0.0
27.82,0.0
28.02,0.0
28.22,0.0
28.42,0.0
28.62,0.0
28.82,0.0
29.02,0.0
29.22,0.0
29.42,0.0
29.62,0.0
29.82,0.0
30.02,0.0
30.22,0.0
30.42,0.0
30.62,0.0
30.82,0.0
31.02,0.0
31.22,0.0
31.42,0.0
31.62,0.0
31.82,0.0
32.02,0.0
32.22,0.0
32.42,0.0
32.62,0.0
32.82,0.0
33.02,0.0
33.22,0.0
33.42,0.0
33.62,0.0
33.82,0.0
34.02,0.0
34.22,0.0
34.42,0.0
34.62,0.0
34.82,0.0
35.02,0.0
35.22,1.31315e-288
35.42,5.856e-256
35.62,2.92466e-225
35.82,1.63584e-196
36.02,1.0247e-169
36.22,7.18858e-145
36.42,5.6478e-122
36.62,4.96943e-101
36.82,4.89692e-82
37.02,5.40419e-65
37.22,6.67926e-50
37.42,9.2452e-37
37.62,1.43316e-25
37.82,2.48807e-16
38.02,4.83751e-09
38.22,0.00105335
38.42,2.56868
38.62,70.1521
38.82,21.4566
39.02,0.0734973
39.22,2.8195e-06
39.42,1.21133e-12
39.62,5.82833e-21
39.82,3.14063e-31
40.02,1.8953e-43
40.22,1.28095e-57
40.42,9.69557e-74
40.62,8.21876e-92
40.82,7.80242e-112
41.02,8.29551e-134
41.22,9.8775e-158
41.42,1.31717e-183
41.62,1.9671e-211
41.82,4.99925e-211
42.02,7.66318e-185
42.22,2.22109e-160
42.42,1.21724e-137
42.62,1.26137e-116
42.82,2.4715e-97
43.02,9.15656e-80
43.22,6.41443e-64
43.42,8.49645e-50
43.62,2.12799e-37
43.82,1.00776e-26
44.02,9.02396e-18
44.22,1.52789e-10
44.42,4.89146e-05
44.62,0.296101
44.82,33.8918
45.02,73.3504
45.22,3.00168
45.42,0.00232263
45.62,3.39821e-08
45.82,9.40097e-15
46.02,4.91755e-23
46.22,4.86384e-33
46.42,9.09627e-45
46.62,3.21663e-58
46.82,2.15076e-73
47.02,2.71917e-90
47.22,6.50032e-109
47.42,2.93824e-129
47.62,2.51127e-151
47.82,4.05837e-175
48.02,1.24012e-200
48.22,7.16525e-228
48.42,7.82802e-257
48.62,1.61706e-287
48.82,6.323e-320
49.02,0.0
49.22,0.0
49.42,0.0
49.62,0.0
49.82,0.0
50.02,0.0
50.22,0.0
50.42,0.0
50.62,0.0
50.82,0.0
51.02,0.0
51.22,0.0
51.42,0.0
51.62,0.0
51.82,0.0
52.02,0.0
52.22,0.0
52.42,0.0
52.62,0.0
52.82,0.0
53.02,0.0
53.22,0.0
53.42,0.0
53.62,0.0
53.82,0.0
54.02,0.0
54.22,0.0
54.42,0.0
54.62,0.0
54.82,0.0
55.02,0.0
55.22,0.0
55.42,0.0
55.62,0.0
55.82,0.0
56.02,0.0
56.22,0.0
56.42,0.0
56.62,0.0
56.82,0.0
57.02,0.0
57.22,0.0
57.42,0.0
57.62,0.0
57.82,0.0
58.02,0.0
58.22,0.0
58.42,0.0
58.62,0.0
58.82,0.0
59.02,0.0
59.22,0.0
59.42,0.0
59.62,0.0
59.82,0.0
60.02,0.0
60.22,0.0
60.42,0.0
60.62,0.0
60.82,3.04386e-310
61.02,3.40148e-284
61.22,2.75889e-259
61.42,1.62415e-235
61.62,6.93968e-213
61.82,2.15217e-191
62.02,4.84438e-171
62.22,7.91449e-152
62.42,9.38495e-134
62.62,8.07726e-117
62.82,5.04568e-101
63.02,2.2877e-86
63.22,7.5284e-73
63.42,1.79817e-60
63.62,3.11731e-49
63.82,3.92242e-39
64.02,3.58222e-30
64.22,2.37451e-22
64.42,1.1424e-15
64.62,3.98922e-10
64.82,1.01107e-05
65.02,0.0185993
65.22,2.48334
65.42,24.0658
65.62,16.9273
65.82,0.864168
66.02,0.00320208
66.22,8.61174e-07
66.42,1.68102e-11
66.62,2.38165e-17
66.82,2.4491e-24
67.02,1.82793e-32
67.22,9.9023e-42
67.42,3.89347e-52
67.62,1.11112e-63
67.82,2.30148e-76
68.02,3.46002e-90
68.22,3.77549e-105
68.42,2.99014e-121
68.62,1.71883e-138
68.82,7.17132e-157
69.02,2.17164e-176
69.22,4.77311e-197
69.42,7.61444e-219
69.62,8.81655e-242
69.82,7.40939e-266
70.02,4.5195e-291
70.22,2.00089e-317
70.42,0.0
70.62,0.0
70.82,0.0
71.02,0.0
71.22,0.0
71.42,0.0
71.62,0.0
71.82,0.0
72.02,0.0
72.22,0.0
72.42,0.0
72.62,0.0
72.82,0.0
73.02,3e-323
73.22,4.57535e-301
73.42,1.11895e-279
73.62,4.45957e-259
73.82,2.89647e-239
74.02,3.06578e-220
74.22,5.28821e-202
74.42,1.48652e-184
74.62,6.80968e-168
74.82,5.08369e-152
75.02,6.1848e-137
75.22,1.22622e-122
75.42,3.9619e-109
75.62,2.0861e-96
75.82,1.79004e-84
76.02,2.50313e-73
76.22,5.70428e-63
76.42,2.11842e-53
76.62,1.28209e-44
76.82,1.26451e-36
77.02,2.03244e-29
77.22,5.32365e-23
77.42,2.27246e-17
77.62,1.5808e-12
77.82,1.79207e-08
78.02,3.31075e-05
78.22,0.00996766
78.42,0.489052
78.62,3.91031
78.82,5.09522
79.02,1.08196
79.22,0.0374414
79.42,0.000211149
79.62,1.94053e-07
79.82,2.90634e-11
80.0,2.22624e-15

File: XRD_LiF.csv
5.04,0.0
5.33,0.0
5.62,0.0
5.91,0.0
6.2,0.0
6.49,0.0
6.78,0.0
7.07,0.0
7.36,0.0
7.65,0.0
7.94,0.0
8.23,0.0
8.52,0.0
8.81,0.0
9.1,0.0
9.39,0.0
9.68,0.0
9.97,0.0
10.26,0.0
10.55,0.0
10.84,0.0
11.13,0.0
11.42,0.0
11.71,0.0
12.0,0.0
12.29,0.0
12.58,0.0
12.87,0.0
13.16,0.0
13.45,0.0
13.74,0.0
14.03,0.0
14.32,0.0
14.61,0.0
14.9,0.0
15.19,0.0
15.48,0.0
15.77,0.0
16.06,0.0
16.35,0.0
16.64,0.0
16.93,0.0
17.22,0.0
17.51,0.0
17.8,0.0
18.09,0.0
18.38,0.0
18.67,0.0
18.96,0.0
19.25,0.0
19.54,0.0
19.83,0.0
20.12,0.0
20.41,0.0
20.7,0.0
20.99,0.0
21.28,0.0
21.57,0.0
21.86,0.0
22.15,0.0
22.44,0.0
22.73,0.0
23.02,0.0
23.31,0.0
23.6,0.0
23.89,0.0
24.18,0.0
24.47,0.0
24.76,0.0
25.05,0.0
25.34,0.0
25.63,0.0
25.92,0.0
26.21,0.0
26.5,0.0
26.79,0.0
27.08,0.0
27.37,0.0
27.66,0.0
27.95,0.0
28.24,0.0
28.53,0.0
28.82,0.0
29.11,0.0
29.4,0.0
29.69,0.0
29.98,0.0
30.27,0.0
30.56,0.0
30.85,0.0
31.14,0.0
31.43,0.0
31.72,0.0
32.01,0.0
32.3,0.0
32.59,0.0
32.88,0.0
33.17,0.0
33.46,0.0
33.75,0.0
34.04,0.0
34.33,0.0
34.62,0.0
34.91,0.0
35.2,4.99054e-290
35.49,4.85076e-243
35.78,3.73176e-200
36.07,2.27226e-161
36.36,1.09508e-126
36.65,4.17709e-96
36.94,1.26108e-69
37.23,3.01339e-47
37.52,5.69912e-29
37.81,8.53104e-15
38.1,0.000101074
38.39,94.7797
38.68,7034.52
38.97,41.3233
39.26,1.92131e-05
39.55,7.07034e-16
39.84,2.05933e-30
40.13,4.74735e-49
40.42,8.66203e-72
40.71,1.25092e-98
41.0,1.42982e-129
41.29,1.29352e-164
41.58,9.26204e-204
41.87,2.28484e-202
42.16,1.38245e-165
42.45,1.99126e-132
42.74,6.82801e-103
43.03,5.57376e-77
43.32,1.08315e-54
43.61,5.01092e-36
43.9,5.51865e-21
44.19,1.44689e-09
44.48,0.0903078
44.77,1341.85
45.06,4746.43
45.35,3.99685
45.64,8.0123e-07
45.93,3.82369e-17
46.22,4.34406e-31
46.51,1.17489e-48
46.8,7.56457e-70
47.09,1.15947e-94
47.38,4.23078e-123
47.67,3.67511e-155
47.96,7.59988e-191
48.25,3.74137e-230
48.54,4.38471e-273
48.83,1.16787e-319
49.12,0.0
49.41,0.0
49.7,0.0
49.99,0.0
50.28,0.0
50.57,0.0
50.86,0.0
51.15,0.0
51.44,0.0
51.73,0.0
52.02,0.0
52.31,0.0
52.6,0.0
52.89,0.0
53.18,0.0
53.47,0.0
53.76,0.0
54.05,0.0
54.34,0.0
54.63,0.0
54.92,0.0
55.21,0.0
55.5,0.0
55.79,0.0
56.08,0.0
56.37,0.0
56.66,0.0
56.95,0.0
57.24,0.0
57.53,0.0
57.82,0.0
58.11,0.0
58.4,0.0
58.69,0.0
58.98,0.0
59.27,0.0
59.56,0.0
59.85,0.0
60.14,0.0
60.43,0.0
60.72,0.0
61.01,1.61579e-283
61.3,1.08967e-247
61.59,2.95866e-214
61.88,3.23437e-183
62.17,1.42357e-154
62.46,2.52267e-128
62.75,1.79985e-104
63.04,5.17016e-83
63.33,5.9795e-64
63.62,2.78433e-47
63.91,5.21997e-33
64.2,3.94012e-21
64.49,1.19741e-11
64.78,0.000146512
65.07,7.21761
65.36,1431.55
65.65,1143.18
65.94,3.6755
66.23,4.75786e-05
66.52,2.4797e-12
66.81,5.20331e-22
67.1,4.39597e-34
67.39,1.49528e-48
67.68,2.04778e-65
67.97,1.12911e-84
68.26,2.5066e-106
68.55,2.2404e-130
68.84,8.0623e-157
69.13,1.16812e-185
69.42,6.81407e-217
69.71,1.60037e-250
70.0,1.51331e-286
70.29,0.0
70.58,0.0
70.87,0.0
71.16,0.0
71.45,0.0
71.74,0.0
72.03,0.0
72.32,0.0
72.61,0.0
72.9,0.0
73.19,2.63313e-302
73.48,2.1835e-271
73.77,3.99704e-242
74.06,1.61522e-214
74.35,1.44089e-188
74.64,2.83751e-164
74.93,1.23353e-141
75.22,1.18377e-120
75.51,2.50781e-101
75.8,1.17281e-83
76.09,1.21078e-67
76.38,2.75937e-53
76.67,1.38823e-40
76.96,1.54177e-29
77.25,3.77994e-20
77.54,2.04577e-12
77.83,2.44419e-06
78.12,0.0644644
78.41,37.5328
78.7,482.401
78.99,136.871
79.28,0.857282
79.57,0.000118534
79.86,3.61797e-10
80.15,2.43779e-17
80.44,3.62604e-26
80.73,1.19063e-36
81.02,3.19339e-33
81.31,1.10842e-23
81.6,1.19977e-15
81.89,4.04974e-09
82.18,0.000426281
82.47,1.39928
82.76,143.235
83.05,457.229
83.34,45.5152
83.63,0.141292
83.92,1.36778e-05
84.21,4.1291e-11
84.5,3.88716e-18
84.79,1.14116e-26
85.08,1.04472e-36
85.37,2.98259e-48
85.66,2.65537e-61
85.95,7.37215e-76
86.24,6.38267e-92
86.53,1.72325e-109
86.82,1.45089e-128
87.11,3.8094e-149
87.4,3.11903e-171
87.69,7.96378e-195
87.98,6.34101e-220
88.27,1.57448e-246
88.56,1.21914e-274
88.85,2.94379e-304
89.14,0.0
89.43,0.0
89.72,0.0
89.99,0.0

File: XRD_ZnO.csv
20.0395,0.0
20.2622,0.0
20.4849,0.0
20.7077,0.0
20.9304,0.0
21.1531,0.0
21.3759,0.0
21.5986,0.0
21.8213,0.0
22.0441,5.55255e-302
22.2668,2.37567e-281
22.4895,1.9234e-261
22.7123,2.94675e-242
22.935,8.54294e-224
23.1577,4.68665e-206
23.3805,4.86527e-189
23.6032,9.55747e-173
23.8259,3.55278e-157
24.0487,2.49911e-142
24.2714,3.32653e-128
24.4941,8.37893e-115
24.7169,3.99371e-102
24.9396,3.60208e-90
25.1623,6.14783e-79
25.3851,1.98555e-68
25.6078,1.21347e-58
25.8305,1.40336e-49
26.0533,3.07113e-41
26.276,1.2718e-33
26.4987,9.96618e-27
26.7215,1.47785e-20
26.9442,4.14687e-15
27.1669,2.20192e-10
27.3897,2.21245e-06
27.6124,0.00420665
27.8351,1.51352
28.0579,103.046
28.2806,1327.59
28.5033,3236.6
28.7261,1493.15
28.9488,130.349
29.1715,2.15329
29.3943,0.00673114
29.617,3.98166e-06
29.8397,4.45687e-10
30.0625,9.44032e-15
30.2852,3.78385e-20
30.5079,2.86993e-26
30.7307,4.58222e-31
30.9534,6.09699e-25
31.1761,1.95292e-19
31.3989,1.49231e-14
31.6216,2.72046e-10
31.8443,1.18313e-06
32.0671,0.00122752
32.2898,0.303831
32.5125,17.9409
32.7353,252.733
32.958,849.353
33.1807,680.96
33.4035,130.245
33.6262,5.94304
33.8489,0.0646939
34.0717,0.000168006
34.2944,1.04086e-07
34.5171,1.5384e-11
34.7399,5.42441e-16
34.9626,4.56292e-21
35.1853,9.15673e-27
35.4081,4.38374e-33
35.6308,5.00676e-40
35.8535,1.36419e-47
36.0763,8.86752e-56
36.299,1.3751e-64
36.5217,5.08717e-74
36.7445,4.48977e-84
36.9672,9.4532e-95
37.1899,4.74833e-106
37.4127,5.68998e-118
37.6354,1.62662e-130
37.8581,1.10936e-143
38.0809,1.80493e-157
38.3036,7.00583e-172
38.5263,6.48731e-187
38.7491,1.4331e-202
38.9718,7.5526e-219
39.1945,9.49562e-236
39.4173,2.84811e-253
39.64,1.42996e-270
39.8627,3.25388e-255
40.0855,3.07508e-240
40.3082,1.03493e-225
40.5309,1.24042e-211
40.7537,5.29452e-198
40.9764,8.04797e-185
41.1991,4.3566e-172
41.4219,8.39867e-160
41.6446,5.766e-148
41.8673,1.40975e-136
42.0901,1.22746e-125
42.3128,3.80607e-115
42.5355,4.20288e-105
42.7583,1.6528e-95
42.981,2.31469e-86
43.2037,1.15443e-77
43.4265,2.05042e-69
43.6492,1.29695e-61
43.8719,2.92147e-54
44.0947,2.34359e-47
44.3174,6.69521e-41
44.5401,6.81158e-35
44.7629,2.46793e-29
44.9856,3.18435e-24
45.2083,1.46322e-19
45.4311,2.39441e-15
45.6538,1.39537e-11
45.8765,2.89589e-08
46.0993,2.14031e-05
46.322,0.00563343
46.5447,0.528044
46.7675,17.6266
46.9902,209.541
47.2129,887.097
47.4357,1337.44
47.6584,718.091
47.8811,137.305
48.1039,9.34962
48.3266,0.226727
48.5493,0.00195801
48.7721,6.0218e-06
48.9948,6.59539e-09
49.2175,2.5725e-12
49.4403,3.57332e-16
49.663,1.76763e-20
49.8857,3.11394e-25
50.1085,1.95358e-30
50.3312,4.3647e-36
50.5539,3.4728e-42
50.7767,9.84022e-49
50.9994,9.92961e-56
51.2221,3.5683e-63
51.4449,4.56659e-71
51.6676,1.08365e-75
51.8903,2.69575e-68
52.1131,2.87084e-61
52.3358,1.30857e-54
52.5585,2.55297e-48
52.7813,2.13182e-42
53.004,7.6193e-37
53.2267,1.16557e-31
53.4495,7.63166e-27
53.6722,2.13874e-22
53.8949,2.56541e-18
54.1177,1.31708e-14
54.3404,2.8942e-11
54.5631,2.72209e-08
54.7859,1.09581e-05
55.0086,0.0018881
55.2313,0.139243
55.4541,4.39522
55.6768,59.3809
55.8995,343.377
56.1223,849.874
56.345,900.318
56.5677,408.222
56.7905,79.2236
57.0132,6.58069
57.2359,0.233963
57.4587,0.00361087
57.6814,0.00294971
57.9041,0.089738
58.1269,1.45945
58.3496,12.5889
58.5723,57.5935
58.7951,139.749
59.0178,179.849
59.2405,122.76
59.4633,44.442
59.686,8.53331
59.9087,0.869018
60.1315,0.0469383
60.3542,0.00134466
60.5769,2.04308e-05
60.7997,1.64644e-07
61.0224,7.03711e-10
61.2451,1.59525e-12
61.4679,1.91802e-15
61.6906,1.2231e-18
61.9133,4.13676e-22
62.1361,7.4207e-26
62.3588,7.06021e-30
62.5815,3.56268e-34
62.8043,9.53509e-39
63.027,6.40121e-42
63.2497,6.75554e-39
63.4725,5.65544e-36
63.6952,3.67621e-33
63.9179,1.85551e-30
64.1407,7.27196e-28
64.3634,2.21293e-25
64.5861,5.22892e-23
64.8089,9.59363e-21
65.0316,1.36673e-18
65.2543,1.51185e-16
65.4771,1.29856e-14
65.6998,8.66048e-13
65.9225,4.48487e-11
66.1453,1.80337e-09
66.368,5.63053e-08
66.5907,1.36502e-06
66.8135,2.56955e-05
67.0362,0.00037558
67.2589,0.00426261
67.4817,0.0375643
67.7044,0.257042
67.9271,1.36571
68.1499,5.63431
68.3726,18.0489
68.5953,44.894
68.8181,86.7067
69.0408,130.03
69.2635,151.413
69.4863,136.902
69.709,96.1137
69.9317,52.3946
70.1545,22.1777
70.3772,7.28908
70.5999,1.86019
70.8227,0.368611
71.0454,0.0567161
71.2681,0.00677599
71.4909,0.000628588
71.7136,4.5278e-05
71.9363,2.53242e-06
72.1591,1.09979e-07
72.3818,3.70864e-09
72.6045,9.71058e-11
72.8273,1.97426e-12
73.05,3.12098e-14
73.2727,9.16444e-15
73.4955,1.2596e-12
73.7182,1.27588e-10
73.9409,9.12738e-09
74.1637,4.61148e-07
74.3864,1.64548e-05
74.6091,0.000414671
74.8319,0.00738027
75.0546,0.0927683
75.2773,0.823541
75.5001,5.16333
75.7228,22.8629
75.9455,71.4978
76.1683,157.911
76.391,246.314
76.6137,271.346
76.8365,211.115
77.0592,116.013
77.2819,45.1055
77.5047,12.9387
77.7274,5.48941
77.9501,12.4604
78.1729,36.0029
78.3956,80.7999
78.6183,137.507
78.8411,177.312
79.0638,173.234
79.2865,128.237
79.5093,71.925
79.732,30.5654
79.9547,9.84158
80.1775,2.40096
80.4002,0.443801
80.6229,0.0621551
80.8457,0.00659554
81.0684,0.000530284
81.2911,3.23036e-05
81.5139,1.491e-06
81.7366,5.21423e-08

File: ZnO.csv
19.999,237
20.2217,221
20.4444,205
20.6672,215
20.8899,203
21.1126,196
21.3354,212
21.5581,220
21.7808,187
22.0036,194
22.2263,203
22.449,179
22.6718,221
22.8945,181
23.1172,202
23.34,177
23.5627,182
23.7854,193
24.0082,202
24.2309,197
24.4536,219
24.6764,179
24.8991,193
25.1218,186
25.3446,211
25.5673,213
25.79,217
26.0128,195
26.2355,204
26.4582,191
26.681,214
26.9037,181
27.1264,204
27.3492,239
27.5719,278
27.7946,332
28.0174,530
28.2401,1128
28.4628,3491
28.6856,1979
28.9083,605
29.131,340
29.3538,315
29.5765,238
29.7992,262
30.022,231
30.2447,225
30.4674,202
30.6902,230
30.9129,223
31.1356,213
31.3584,223
31.5811,210
31.8038,194
32.0266,206
32.2493,263
32.472,259
32.6948,402
32.9175,907
33.1402,975
33.363,376
33.5857,266
33.8084,200
34.0312,197
34.2539,213
34.4766,193
34.6994,220
34.9221,204
35.1448,209
35.3676,197
35.5903,208
35.813,199
36.0358,187
36.2585,200
36.4812,174
36.704,214
36.9267,199
37.1494,203
37.3722,204
37.5949,184
37.8176,184
38.0404,186
38.2631,181
38.4858,199
38.7086,183
38.9313,202
39.154,198
39.3768,183
39.5995,187
39.8222,186
40.045,173
40.2677,175
40.4904,177
40.7132,196
40.9359,186
41.1586,192
41.3814,199
41.6041,176
41.8268,176
42.0496,204
42.2723,191
42.495,210
42.7178,201
42.9405,200
43.1632,203
43.386,168
43.6087,201
43.8314,190
44.0542,195
44.2769,205
44.4996,176
44.7224,204
44.9451,179
45.1678,169
45.3906,186
45.6133,184
45.836,196
46.0588,215
46.2815,231
46.5042,252
46.727,295
46.9497,393
47.1724,868
47.3952,1566
47.6179,938
47.8406,430
48.0634,282
48.2861,214
48.5088,219
48.7316,232
48.9543,194
49.177,214
49.3998,194
49.6225,201
49.8452,175
50.068,176
50.2907,173
50.5134,211
50.7362,167
50.9589,194
51.1816,180
51.4044,193
51.6271,187
51.8498,210
52.0726,201
52.2953,200
52.518,179
52.7408,201
52.9635,176
53.1862,188
53.409,205
53.6317,202
53.8544,212
54.0772,191
54.2999,225
54.5226,202
54.7454,200
54.9681,234
55.1908,231
55.4136,223
55.6363,325
55.859,475
56.0818,943
56.3045,1193
56.5272,676
56.75,314
56.9727,290
57.1954,245
57.4182,203
57.6409,272
57.8636,194
58.0864,233
58.3091,203
58.5318,254
58.7546,311
58.9773,375
59.2,317
59.4228,233
59.6455,209
59.8682,210
60.091,191
60.3137,196
60.5364,199
60.7592,171
60.9819,157
61.2046,203
61.4274,172
61.6501,192
61.8728,191
62.0956,190
62.3183,180
62.541,195
62.7638,175
62.9865,189
63.2092,196
63.432,183
63.6547,183
63.8774,183
64.1002,190
64.3229,174
64.5456,180
64.7684,193
64.9911,187
65.2138,172
65.4366,186
65.6593,199
65.882,168
66.1048,172
66.3275,177
66.5502,196
66.773,168
66.9957,177
67.2184,163
67.4412,177
67.6639,183
67.8866,173
68.1094,204
68.3321,197
68.5548,196
68.7776,233
69.0003,256
69.223,364
69.4458,325
69.6685,245
69.8912,192
70.114,210
70.3367,191
70.5594,211
70.7822,207
71.0049,185
71.2276,186
71.4504,183
71.6731,188
71.8958,184
72.1186,174
72.3413,180
72.564,174
72.7868,179
73.0095,195
73.2322,195
73.455,177
73.6777,184
73.9004,194
74.1232,179
74.3459,175
74.5686,186
74.7914,185
75.0141,183
75.2368,185
75.4596,194
75.6823,218
75.905,259
76.1278,296
76.3505,391
76.5732,438
76.796,415
77.0187,253
77.2414,223
77.4642,215
77.6869,222
77.9096,191
78.1324,202
78.3551,242
78.5778,274
78.8006,345
79.0233,358
79.246,289
79.4688,254
79.6915,211
79.9142,183
80.137,192
80.3597,202
80.5824,184
80.8052,173
81.0279,196
81.2506,216
81.4734,195
81.6961,197
81.7366,182